File: data/reports/ImportFrom_AY24-22 CK4660K41(III)_3361-ASMS_St4_2024_02_21_01_ads (at 2024-02-27-07-08-24)_report_01.txt
== Analysis Data ==
                             *** This data was imported from a human readable text file. ***
Sample Desc:                              Comment:
Instrument:       User Import             Sample Weight:    0.0317 g
Adsorbate:        Nitrogen                Analysis Temp.:   77.3 K
Analysis time     1194.49                 Ambient temp      300.0                   Instrument        AS6KR/MP
Station           4                       Software Version  2.02                    Sample Outgassing Time24.00
Sample Outgassing Temp300.00
== Data Reduction Parameters ==
                  Thermal Transpiration: off    Eff. mol. diameter (D): 3.54 Å      Eff. cell stem diam. (d): 4.0000 mm
t-Method          Calc. method: Halsey
MP method         Thickness interval: 0.50A
Alpha-s method    Std. isotherm: CABOT_BP_280   P / Po :          0.40
BJH/DH method     Moving pt. avg.: 11           Ignoring P-tags below 0.35 P/Po
DA Method         Incr. E:    500.000           Incr. n:          0.100             Interact. Const. (K): 2.960nm³ x kJ / mol
DR method         Affinity coefficient (ß): 0.3300
Adsorbate model   Nitrogen                      Temperature       77.350K
                  Molec. Wt.: 28.013            Cross Section:    16.200  Å²        Liquid Density:   0.808  g/cc
                  Contact Angle: 0.0  degrees   Surf. Tension:    8.850  erg/cm²
                  Critical Temp.: 126.200  K    Critical Press.:  33.500  atm       SuperCritic. K.:  1.000
                  Avg. Diameter:0.300  nm       Polarizability:   1.460  (cc/molec) x 10-24Magn. Suscept.:2.000
                  Molec. Density6.700  (mol/cm²)x1014
Adsorbent model   Carbon
                  Atom Diameter: 0.340  nm      Surf. Atom Dens.: 38.450  (mol/cm²)x1014Polarizability: 1.020  (cc/molec)x10-24
                                                Magn. Susc.:      13.500  (cc/molec)x10-29
== Volume/Area summary ==
                                                   Surface Area Data

MultiPoint BET                                                                           9.278e+02 m²/g
BJH method cumulative adsorption surface area                                            3.871e+01 m²/g
BJH method cumulative desorption surface area                                            3.871e+01 m²/g
DFT cumulative surface area                                                              8.905e+02 m²/g

                                                    Pore Volume Data

Total pore volume for pores with Diameter
less than 3194.10 nm at P/Po = 0.999400                                                  4.563e-01 cc/g
BJH method cumulative adsorption pore volume                                             9.284e-02 cc/g
BJH method cumulative desorption pore volume                                             9.284e-02 cc/g
DFT method cumulative pore volume                                                        3.853e-01 cc/g

                                                     Pore Size Data

Average pore Diameter                                                                    1.967e+00 nm
BJH method adsorption pore Diameter (Mode Dv(d))                                         3.175e+00 nm
BJH method desorption pore Diameter (Mode Dv(d))                                         3.175e+00 nm
DFT pore Diameter (Mode)                                                                 7.230e-01 nm

== Isotherm ==

                          Relative                                                  Volume @ STP
                          Pressure
                                                                                        cc/g

                             5.52895e-03                                               186.9872
                             7.07012e-03                                               190.5911
                             8.67155e-03                                               193.7380
                             1.01054e-02                                               195.9538
                             2.02377e-02                                               206.1281
                             2.72472e-02                                               210.7290
                             3.25234e-02                                               213.5415
                             3.78978e-02                                               215.9083
                             4.44547e-02                                               218.3867
                             5.26141e-02                                               220.8999
                             6.27447e-02                                               223.4437
                             7.57444e-02                                               226.1347
                             8.81064e-02                                               228.2469
                             9.33790e-02                                               229.0393
                             1.12721e-01                                               231.6059
                             1.37642e-01                                               234.2906
                             1.62878e-01                                               236.4937
                             1.88114e-01                                               238.3233
                             2.13180e-01                                               239.9207
                             2.38145e-01                                               241.9405
                             2.63279e-01                                               243.2951
                             2.88358e-01                                               244.5376
                             3.13348e-01                                               245.9595
                             3.38345e-01                                               247.0679
                             3.63356e-01                                               248.0979
                             3.88245e-01                                               249.2639
                             4.13287e-01                                               250.3663
                             4.38373e-01                                               251.2995
                             4.63322e-01                                               252.1824
                             4.88211e-01                                               253.1598
                             5.13180e-01                                               254.1769
                             5.38206e-01                                               255.0061
                             5.63188e-01                                               255.7531
                             5.88291e-01                                               256.4336
                             6.13034e-01                                               257.3983
                             6.38156e-01                                               258.2488
                             6.63184e-01                                               258.9101
                             6.88046e-01                                               259.6101
                             7.12865e-01                                               260.7242
                             7.38016e-01                                               261.5127
                             7.63058e-01                                               262.2166
                             7.87997e-01                                               262.8598
                             8.13035e-01                                               263.5057
                             8.37644e-01                                               264.6017
                             8.62799e-01                                               265.4956
                             8.87863e-01                                               266.2843
                             9.12771e-01                                               267.1396
                             9.23697e-01                                               267.5351
                             9.33257e-01                                               268.4776
                             9.38805e-01                                               269.0726
                             9.44033e-01                                               269.2417
                             9.53590e-01                                               269.7312
                             9.63606e-01                                               270.2715
                             9.72984e-01                                               271.6736
                             9.83035e-01                                               272.9389
                             9.88479e-01                                               274.0324
                             9.93083e-01                                               275.6469
                             9.99400e-01                                               295.0175
                             9.93083e-01                                               275.6469
                             9.88479e-01                                               274.0324
                             9.83035e-01                                               272.9389
                             9.72984e-01                                               271.6736
                             9.63606e-01                                               270.2715
                             9.53590e-01                                               269.7312
                             9.44033e-01                                               269.2417
                             9.38805e-01                                               269.0726
                             9.33257e-01                                               268.4776
                             9.23697e-01                                               267.5351
                             9.12771e-01                                               267.1396
                             8.87863e-01                                               266.2843
                             8.62799e-01                                               265.4956
                             8.37644e-01                                               264.6017
                             8.13035e-01                                               263.5057
                             7.87997e-01                                               262.8598
                             7.63058e-01                                               262.2166
                             7.38016e-01                                               261.5127
                             7.12865e-01                                               260.7242
                             6.88046e-01                                               259.6101
                             6.63184e-01                                               258.9101
                             6.38156e-01                                               258.2488
                             6.13034e-01                                               257.3983
                             5.88291e-01                                               256.4336
                             5.63188e-01                                               255.7531
                             5.38206e-01                                               255.0061
                             5.13180e-01                                               254.1769
                             4.88211e-01                                               253.1598
                             4.63322e-01                                               252.1824
                             4.38373e-01                                               251.2995
                             4.13287e-01                                               250.3663
                             3.88245e-01                                               249.2639
                             3.63356e-01                                               248.0979
                             3.38345e-01                                               247.0679
                             3.13348e-01                                               245.9595
                             2.88358e-01                                               244.5376
                             2.63279e-01                                               243.2951
                             2.38145e-01                                               241.9405
                             2.13180e-01                                               239.9207
                             1.88114e-01                                               238.3233
                             1.62878e-01                                               236.4937
                             1.37642e-01                                               234.2906
                             1.12721e-01                                               231.6059
                             9.33790e-02                                               229.0393
                             8.81064e-02                                               228.2469
                             7.57444e-02                                               226.1347
                             6.27447e-02                                               223.4437
                             5.26141e-02                                               220.8999
                             4.44547e-02                                               218.3867
                             3.78978e-02                                               215.9083
                             3.25234e-02                                               213.5415
                             2.72472e-02                                               210.7290
                             2.02377e-02                                               206.1281
                             1.01054e-02                                               195.9538
                             8.67155e-03                                               193.7380
                             7.07012e-03                                               190.5911
                             5.52895e-03                                               186.9872
== Absolute Isotherm ==

                          Pressure                                                  Volume @ STP

                            Torr                                                        cc/g

                             4.3566                                                    186.9872
                             5.5710                                                    190.5911
                             6.8328                                                    193.7380
                             7.9627                                                    195.9538
                            15.9465                                                    206.1281
                            21.4697                                                    210.7290
                            25.6271                                                    213.5415
                            29.8620                                                    215.9083
                            35.0285                                                    218.3867
                            41.4578                                                    220.8999
                            49.4403                                                    223.4437
                            59.6836                                                    226.1347
                            69.4243                                                    228.2469
                            73.5789                                                    229.0393
                            88.8196                                                    231.6059
                           108.4564                                                    234.2906
                           128.3413                                                    236.4937
                           148.2263                                                    238.3233
                           167.9773                                                    239.9207
                           187.6487                                                    241.9405
                           207.4533                                                    243.2951
                           227.2146                                                    244.5376
                           246.9057                                                    245.9595
                           266.6023                                                    247.0679
                           286.3100                                                    248.0979
                           305.9215                                                    249.2639
                           325.6536                                                    250.3663
                           345.4204                                                    251.2995
                           365.0792                                                    252.1824
                           384.6907                                                    253.1598
                           404.3653                                                    254.1769
                           424.0848                                                    255.0061
                           443.7696                                                    255.7531
                           463.5498                                                    256.4336
                           483.0463                                                    257.3983
                           502.8414                                                    258.2488
                           522.5625                                                    258.9101
                           542.1527                                                    259.6101
                           561.7091                                                    260.7242
                           581.5271                                                    261.5127
                           601.2592                                                    262.2166
                           620.9101                                                    262.8598
                           640.6391                                                    263.5057
                           660.0300                                                    264.6017
                           679.8511                                                    265.4956
                           699.6005                                                    266.2843
                           719.2270                                                    267.1396
                           727.8363                                                    267.5351
                           735.3692                                                    268.4776
                           739.7408                                                    269.0726
                           743.8602                                                    269.2417
                           751.3908                                                    269.7312
                           759.2830                                                    270.2715
                           766.6725                                                    271.6736
                           774.5923                                                    272.9389
                           778.8819                                                    274.0324
                           782.5097                                                    275.6469
                           787.4872                                                    295.0175
                           782.5097                                                    275.6469
                           778.8819                                                    274.0324
                           774.5923                                                    272.9389
                           766.6725                                                    271.6736
                           759.2830                                                    270.2715
                           751.3908                                                    269.7312
                           743.8602                                                    269.2417
                           739.7408                                                    269.0726
                           735.3692                                                    268.4776
                           727.8363                                                    267.5351
                           719.2270                                                    267.1396
                           699.6005                                                    266.2843
                           679.8511                                                    265.4956
                           660.0300                                                    264.6017
                           640.6391                                                    263.5057
                           620.9101                                                    262.8598
                           601.2592                                                    262.2166
                           581.5271                                                    261.5127
                           561.7091                                                    260.7242
                           542.1527                                                    259.6101
                           522.5625                                                    258.9101
                           502.8414                                                    258.2488
                           483.0463                                                    257.3983
                           463.5498                                                    256.4336
                           443.7696                                                    255.7531
                           424.0848                                                    255.0061
                           404.3653                                                    254.1769
                           384.6907                                                    253.1598
                           365.0792                                                    252.1824
                           345.4204                                                    251.2995
                           325.6536                                                    250.3663
                           305.9215                                                    249.2639
                           286.3100                                                    248.0979
                           266.6023                                                    247.0679
                           246.9057                                                    245.9595
                           227.2146                                                    244.5376
                           207.4533                                                    243.2951
                           187.6487                                                    241.9405
                           167.9773                                                    239.9207
                           148.2263                                                    238.3233
                           128.3413                                                    236.4937
                           108.4564                                                    234.2906
                            88.8196                                                    231.6059
                            73.5789                                                    229.0393
                            69.4243                                                    228.2469
                            59.6836                                                    226.1347
                            49.4403                                                    223.4437
                            41.4578                                                    220.8999
                            35.0285                                                    218.3867
                            29.8620                                                    215.9083
                            25.6271                                                    213.5415
                            21.4697                                                    210.7290
                            15.9465                                                    206.1281
                             7.9627                                                    195.9538
                             6.8328                                                    193.7380
                             5.5710                                                    190.5911
                             4.3566                                                    186.9872
== MBET summary ==
                                                     Slope =           3.749 1/g
                                                 Intercept =           4.071e-03 1/g
                                Correlation coefficient, r =           0.999989
                                                 C constant=         922.024

                                              Surface Area =         927.810 ~s/g
== Multi-Point BET ==

               Relative                            Volume @ STP                       1 / [ W((Po/P) - 1) ]
               Pressure
                 P/Po                                  cc/g                                    1/g

                  2.02377e-02                         206.1281                                 8.0178e-02
                  2.72472e-02                         210.7290                                 1.0635e-01
                  3.25234e-02                         213.5415                                 1.2596e-01
                  3.78978e-02                         215.9083                                 1.4597e-01
                  4.44547e-02                         218.3867                                 1.7045e-01
                  5.26141e-02                         220.8999                                 2.0115e-01
                  6.27447e-02                         223.4437                                 2.3972e-01
== Alpha-s summary ==
                                                     Slope =          43.107
                                         Alpha-S Intercept =         206.905 cc/g
                                   Correlation coefficient =           0.995

                                          Micropore volume =           0.320 cc/g
== Alpha-S method ==

            P/Po                     Volume @ STP                  Liquid Vol.                    Alpha

                                         cc/g                         cc/g

             2.1318e-01                   2.3992e+02                   3.7111e-01                  7.8176e-01
             2.3814e-01                   2.4194e+02                   3.7424e-01                  8.0972e-01
             2.6328e-01                   2.4330e+02                   3.7633e-01                  8.3832e-01
             2.8836e-01                   2.4454e+02                   3.7825e-01                  8.6783e-01
             3.1335e-01                   2.4596e+02                   3.8045e-01                  8.9782e-01
             3.3834e-01                   2.4707e+02                   3.8217e-01                  9.2677e-01
             3.6336e-01                   2.4810e+02                   3.8376e-01                  9.5582e-01
             3.8825e-01                   2.4926e+02                   3.8557e-01                  9.8589e-01
             4.1329e-01                   2.5037e+02                   3.8727e-01                  1.0159e+00
== BJH adsorption summary ==

                                              Surface Area =          38.707 ~s/g
                                               Pore Volume =           0.093 cc/g
                                            Pore ^D Dv(^p) =           3.175 ^d

== ^G Adsorption  ==

    Diameter        Pore Volume       Pore Surf         dV(d)            dS(d)          dV(logd)         dS(logd)
                                        Area
       nm              cc/g             m²/g           cc/nm/g          m²/nm/g           cc/g             cc/g

       3.1753           3.8018e-03       4.7893e+00      2.3817e-02       3.0003e+01       1.7410e-01       2.1932e+02
       3.3407           7.0672e-03       8.6427e+00      1.9826e-02       2.3927e+01       1.5152e-01       1.8256e+02
       3.5182           9.8845e-03       1.1748e+01      1.7217e-02       1.9943e+01       1.3762e-01       1.5854e+02
       3.7085           1.2678e-02       1.4618e+01      1.5407e-02       1.7184e+01       1.2862e-01       1.4187e+02
       3.9132           1.5112e-02       1.6975e+01      1.3377e-02       1.4533e+01       1.1535e-01       1.2317e+02
       4.1355           1.7480e-02       1.9095e+01      1.2122e-02       1.2760e+01       1.0909e-01       1.1162e+02
       4.3789           1.9933e-02       2.1427e+01      1.0278e-02       1.0244e+01       9.7736e-02       9.4635e+01
       4.6462           2.2218e-02       2.3469e+01      8.7131e-03       8.1989e+00       8.7859e-02       8.0227e+01
       4.9423           2.4497e-02       2.5362e+01      7.7484e-03       6.8620e+00       8.3488e-02       7.1343e+01
       5.2704           2.6706e-02       2.7088e+01      6.7929e-03       5.7007e+00       7.7487e-02       6.2543e+01
       5.6390           2.8794e-02       2.8613e+01      5.7288e-03       4.5211e+00       6.9661e-02       5.2744e+01
       6.0587           3.0736e-02       2.9929e+01      4.6844e-03       3.4461e+00       6.1175e-02       4.3126e+01
       6.5364           3.2589e-02       3.1100e+01      3.9606e-03       2.7358e+00       5.5193e-02       3.6462e+01
       7.0867           3.4473e-02       3.2186e+01      3.4464e-03       2.2264e+00       5.1849e-02       3.1725e+01
       7.7361           3.6362e-02       3.3192e+01      3.0171e-03       1.8419e+00       4.8443e-02       2.7771e+01
       8.5132           3.8153e-02       3.4053e+01      2.3810e-03       1.3376e+00       4.1822e-02       2.1914e+01
       9.4533           3.9888e-02       3.4801e+01      1.9081e-03       9.8779e-01       3.6661e-02       1.7559e+01
      10.6224           4.1544e-02       3.5464e+01      1.6068e-03       7.7920e-01       3.3312e-02       1.4785e+01
      12.1054           4.3208e-02       3.6059e+01      1.3560e-03       6.0565e-01       3.1706e-02       1.2476e+01
      14.0838           4.4723e-02       3.6525e+01      9.7354e-04       3.7358e-01       2.7574e-02       8.9550e+00
      16.8742           4.6099e-02       3.6910e+01      7.4941e-04       2.5424e-01       2.4118e-02       6.8921e+00
      21.0626           4.7410e-02       3.7235e+01      5.9354e-04       1.7712e-01       2.1823e-02       5.4575e+00
      25.2402           4.8680e-02       3.7516e+01      4.8139e-04       1.2726e-01       2.0026e-02       4.4254e+00
      28.7310           5.0046e-02       3.7765e+01      4.0152e-04       9.3521e-02       1.9507e-02       3.6901e+00
      31.9316           5.1393e-02       3.7952e+01      2.8017e-04       5.2145e-02       1.6959e-02       2.5736e+00
      34.7777           5.2738e-02       3.8099e+01      2.1269e-04       3.2215e-02       1.5652e-02       1.9532e+00
      39.8980           5.4183e-02       3.8217e+01      1.7361e-04       2.2487e-02       1.5132e-02       1.5940e+00
      49.3178           5.8232e-02       3.8315e+01      1.4688e-04       1.7234e-02       1.6396e-02       1.3464e+00
      64.4172           6.0090e-02       3.8416e+01      1.0400e-04       1.0095e-02       1.5241e-02       9.5094e-01
      94.9809           6.2411e-02       3.8497e+01      6.2346e-05       4.1767e-03       1.4263e-02       5.6570e-01
     143.1540           6.6017e-02       3.8587e+01      4.8682e-05       2.2735e-03       1.6100e-02       4.3769e-01
     225.6864           7.1853e-02       3.8646e+01      2.2154e-05       4.5134e-04       1.7045e-02       1.9151e-01
    1737.7           9.2837e-02       3.8707e+01      1.0362e-05       2.3853e-05       2.8606e-02       6.5847e-02
== ^G Interpolated Adsorption ==

            Diameter                   Average         Volume         Cumulative       Surf. Area       Cumulative
            Interval                  Diameter        Increment         Volume          Increment       Surf. Area
               nm                        nm             cc/g             cc/g             m²/g             m²/g

          900.000 - 1000.000           950.000           1.388e-03        1.388e-03        5.843e-03        5.843e-03
          800.000 - 900.000            850.000           1.388e-03        2.776e-03        6.531e-03        1.237e-02
          700.000 - 800.000            750.000           1.388e-03        4.163e-03        7.402e-03        1.978e-02
          600.000 - 700.000            650.000           1.388e-03        5.551e-03        8.540e-03        2.832e-02
          500.000 - 600.000            550.000           1.388e-03        6.939e-03        1.009e-02        3.841e-02
          400.000 - 500.000            450.000           1.388e-03        8.327e-03        1.234e-02        5.075e-02
          300.000 - 400.000            350.000           1.388e-03        9.715e-03        1.586e-02        6.661e-02
          200.000 - 300.000            250.000           2.848e-03        1.256e-02        4.556e-02        1.122e-01
          100.000 - 200.000            150.000           7.250e-03        1.981e-02        1.933e-01        3.055e-01
           90.000 - 100.000             95.000           7.540e-04        2.057e-02        3.175e-02        3.373e-01
           80.000 - 90.000              85.000           7.593e-04        2.133e-02        3.573e-02        3.730e-01
           70.000 - 80.000              75.000           7.593e-04        2.209e-02        4.050e-02        4.135e-01
           60.000 - 70.000              65.000           9.675e-04        2.305e-02        5.954e-02        4.730e-01
           50.000 - 60.000              55.000           1.231e-03        2.428e-02        8.951e-02        5.625e-01
           40.000 - 50.000              45.000           4.088e-03        2.837e-02        3.634e-01        9.259e-01
           30.000 - 40.000              35.000           3.647e-03        3.202e-02        4.168e-01        1.343e+00
           20.000 - 30.000              25.000           3.503e-03        3.552e-02        5.605e-01        1.903e+00
           10.000 - 20.000              15.000           6.415e-03        4.194e-02        1.711e+00        3.614e+00
            9.000 - 10.000               9.500           1.611e-03        4.355e-02        6.783e-01        4.292e+00
            8.000 - 9.000                8.500           2.082e-03        4.563e-02        9.796e-01        5.272e+00
            7.000 - 8.000                7.500           2.794e-03        4.842e-02        1.490e+00        6.762e+00
            6.000 - 7.000                6.500           3.712e-03        5.213e-02        2.284e+00        9.046e+00
            5.000 - 6.000                5.500           5.579e-03        5.771e-02        4.058e+00        1.310e+01
            4.000 - 5.000                4.500           8.849e-03        6.656e-02        7.866e+00        2.097e+01
            3.000 - 4.000                3.500           1.223e-02        7.880e-02        1.398e+01        3.495e+01
== BJH desorption summary ==

                                              Surface Area =          38.707 ~s/g
                                               Pore Volume =           0.093 cc/g
                                            Pore ^D Dv(^p) =           3.175 ^d

== ^G Desorption  ==

    Diameter        Pore Volume       Pore Surf         dV(d)            dS(d)          dV(logd)         dS(logd)
                                        Area
       nm              cc/g             m²/g           cc/nm/g          m²/nm/g           cc/g             cc/g

       3.1753           3.8018e-03       4.7893e+00      2.3817e-02       3.0003e+01       1.7410e-01       2.1932e+02
       3.3407           7.0672e-03       8.6427e+00      1.9826e-02       2.3927e+01       1.5152e-01       1.8256e+02
       3.5182           9.8845e-03       1.1748e+01      1.7217e-02       1.9943e+01       1.3762e-01       1.5854e+02
       3.7085           1.2678e-02       1.4618e+01      1.5407e-02       1.7184e+01       1.2862e-01       1.4187e+02
       3.9132           1.5112e-02       1.6975e+01      1.3377e-02       1.4533e+01       1.1535e-01       1.2317e+02
       4.1355           1.7480e-02       1.9095e+01      1.2122e-02       1.2760e+01       1.0909e-01       1.1162e+02
       4.3789           1.9933e-02       2.1427e+01      1.0278e-02       1.0244e+01       9.7736e-02       9.4635e+01
       4.6462           2.2218e-02       2.3469e+01      8.7131e-03       8.1989e+00       8.7859e-02       8.0227e+01
       4.9423           2.4497e-02       2.5362e+01      7.7484e-03       6.8620e+00       8.3488e-02       7.1343e+01
       5.2704           2.6706e-02       2.7088e+01      6.7929e-03       5.7007e+00       7.7487e-02       6.2543e+01
       5.6390           2.8794e-02       2.8613e+01      5.7288e-03       4.5211e+00       6.9661e-02       5.2744e+01
       6.0587           3.0736e-02       2.9929e+01      4.6844e-03       3.4461e+00       6.1175e-02       4.3126e+01
       6.5364           3.2589e-02       3.1100e+01      3.9606e-03       2.7358e+00       5.5193e-02       3.6462e+01
       7.0867           3.4473e-02       3.2186e+01      3.4464e-03       2.2264e+00       5.1849e-02       3.1725e+01
       7.7361           3.6362e-02       3.3192e+01      3.0171e-03       1.8419e+00       4.8443e-02       2.7771e+01
       8.5132           3.8153e-02       3.4053e+01      2.3810e-03       1.3376e+00       4.1822e-02       2.1914e+01
       9.4533           3.9888e-02       3.4801e+01      1.9081e-03       9.8779e-01       3.6661e-02       1.7559e+01
      10.6224           4.1544e-02       3.5464e+01      1.6068e-03       7.7920e-01       3.3312e-02       1.4785e+01
      12.1054           4.3208e-02       3.6059e+01      1.3560e-03       6.0565e-01       3.1706e-02       1.2476e+01
      14.0838           4.4723e-02       3.6525e+01      9.7354e-04       3.7358e-01       2.7574e-02       8.9550e+00
      16.8742           4.6099e-02       3.6910e+01      7.4941e-04       2.5424e-01       2.4118e-02       6.8921e+00
      21.0626           4.7410e-02       3.7235e+01      5.9354e-04       1.7712e-01       2.1823e-02       5.4575e+00
[...]
                  0.502182                            253.6                                  253.7
                  0.508814                            253.7                                  254
                  0.515445                            253.8                                  254.3
                  0.522077                            254.8                                  254.5
                  0.528652                            254.9                                  254.7
                  0.535227                            255                                    254.9
                  0.541803                            255.1                                  255.1
                  0.548246                            255.2                                  255.3
                  0.554689                            255.3                                  255.5
                  0.561132                            255.4                                  255.7
                  0.567372                            256.1                                  255.9
                  0.573611                            256.2                                  256
                  0.579851                            256.3                                  256.2
                  0.585823                            256.4                                  256.4
                  0.591795                            256.5                                  256.6
                  0.597768                            256.6                                  256.8
                  0.603422                            256.7                                  257
                  0.609076                            257.6                                  257.2
                  0.61473                             257.7                                  257.5
                  0.620029                            257.8                                  257.6
                  0.625329                            257.8                                  257.8
                  0.630628                            257.9                                  258
                  0.635554                            258                                    258.2
                  0.640481                            258.1                                  258.3
                  0.645407                            258.1                                  258.4
                  0.649959                            258.8                                  258.6
                  0.654511                            258.8                                  258.7
                  0.659062                            258.9                                  258.8
                  0.663257                            258.9                                  258.9
                  0.667451                            259                                    259
                  0.671645                            259.1                                  259.1
                  0.675514                            259.1                                  259.3
                  0.679384                            259.2                                  259.4
                  0.683254                            259.9                                  259.5
                  0.686846                            259.9                                  259.6
                  0.690438                            259.9                                  259.7
                  0.69403                             260                                    259.9
                  0.697404                            260                                    260
                  0.700777                            260.1                                  260.2
                  0.70415                             260.1                                  260.3
                  0.707369                            260.2                                  260.5
                  0.710588                            260.2                                  260.6
                  0.713806                            261                                    260.8
                  0.716937                            261.1                                  260.9
                  0.720067                            261.1                                  260.9
                  0.723197                            261.1                                  261
                  0.726299                            261.2                                  261.1
                  0.729401                            261.2                                  261.2
                  0.732503                            261.2                                  261.3
                  0.735624                            261.3                                  261.4
                  0.738745                            261.3                                  261.5
                  0.741867                            261.4                                  261.6
                  0.745034                            261.8                                  261.7
                  0.748201                            261.9                                  261.8
                  0.751368                            261.9                                  261.9
                  0.754577                            261.9                                  262
                  0.757785                            262                                    262.1
                  0.760994                            262.3                                  262.2
                  0.764197                            262.3                                  262.2
                  0.767401                            262.4                                  262.3
                  0.770604                            262.4                                  262.4
                  0.773704                            262.4                                  262.5
                  0.776803                            262.5                                  262.6
                  0.779903                            262.5                                  262.7
                  0.782734                            262.9                                  262.7
                  0.785565                            262.9                                  262.8
                  0.788395                            262.9                                  262.9
                  0.790713                            263                                    262.9
                  0.79303                             263                                    263
                  0.795348                            263                                    263
                  0.796813                            263                                    263.1
                  0.798279                            263.1                                  263.1
                  0.799744                            263.1                                  263.2
                  0.802865                            263.1                                  263.2
                  0.805986                            263.5                                  263.3
                  0.809107                            263.5                                  263.4
                  0.811285                            263.6                                  263.5
                  0.813463                            263.6                                  263.5
                  0.815641                            263.6                                  263.6
                  0.817839                            263.6                                  263.7
                  0.820037                            263.7                                  263.8
                  0.822235                            263.7                                  263.9
                  0.824511                            264.3                                  264
                  0.826787                            264.3                                  264.1
                  0.829063                            264.3                                  264.2
                  0.831001                            264.3                                  264.3
                  0.832939                            264.4                                  264.4
                  0.834877                            264.4                                  264.5
                  0.836817                            264.4                                  264.6
                  0.838757                            264.4                                  264.6
                  0.840698                            264.9                                  264.7
                  0.842707                            264.9                                  264.8
                  0.844717                            264.9                                  264.9
                  0.846726                            264.9                                  264.9
                  0.848581                            265                                    265
                  0.850435                            265                                    265.1
                  0.852289                            265                                    265.1
                  0.85395                             265                                    265.2
                  0.855611                            265.4                                  265.2
                  0.857272                            265.4                                  265.3
                  0.858993                            265.4                                  265.4
                  0.860713                            265.5                                  265.4
                  0.862433                            265.5                                  265.5
                  0.864215                            265.5                                  265.5
                  0.865997                            265.5                                  265.6
                  0.867778                            265.5                                  265.7
                  0.869337                            265.5                                  265.7
                  0.870895                            265.9                                  265.8
                  0.872453                            265.9                                  265.8
                  0.873868                            266                                    265.8
                  0.875283                            266                                    265.9
                  0.876698                            266                                    265.9
                  0.878163                            266                                    266
                  0.879628                            266                                    266
                  0.881093                            266                                    266.1
                  0.88261                             266                                    266.1
                  0.884128                            266.1                                  266.2
                  0.885645                            266.1                                  266.2
                  0.887187                            266.1                                  266.3
                  0.888729                            266.4                                  266.3
                  0.890271                            266.4                                  266.4
                  0.891499                            266.4                                  266.4
                  0.892728                            266.4                                  266.5
                  0.893956                            266.7                                  266.5
                  0.895229                            266.7                                  266.5
                  0.896501                            266.7                                  266.6
                  0.897773                            266.7                                  266.6
                  0.899091                            266.7                                  266.7
                  0.900408                            266.7                                  266.7
                  0.901726                            266.7                                  266.8
                  0.902923                            266.8                                  266.8
                  0.90412                             266.8                                  266.8
                  0.905316                            266.8                                  266.9
                  0.90647                             266.8                                  266.9
                  0.907624                            266.8                                  267
                  0.908778                            267.1                                  267
                  0.909901                            267.1                                  267
                  0.911023                            267.1                                  267.1
                  0.912146                            267.1                                  267.1
                  0.913194                            267.1                                  267.2
                  0.914242                            267.2                                  267.2
                  0.91529                             267.2                                  267.2
                  0.916322                            267.2                                  267.3
                  0.917354                            267.3                                  267.3
                  0.918386                            267.3                                  267.3
                  0.919365                            267.4                                  267.4
                  0.920344                            267.7                                  267.4
                  0.921323                            267.7                                  267.4
                  0.922271                            267.7                                  267.5
                  0.923219                            267.7                                  267.5
                  0.924167                            267.7                                  267.6
                  0.925105                            267.7                                  267.7
                  0.926044                            267.8                                  267.8
                  0.926983                            267.8                                  267.9
                  0.927854                            267.8                                  267.9
                  0.928725                            267.8                                  268
                  0.929597                            267.8                                  268.1
                  0.930477                            267.8                                  268.2
                  0.931356                            268.6                                  268.3
                  0.932236                            268.6                                  268.4
                  0.933039                            268.6                                  268.5
                  0.933842                            268.6                                  268.5
                  0.934645                            268.6                                  268.6
                  0.935465                            268.6                                  268.7
                  0.936285                            268.6                                  268.8
                  0.937104                            268.6                                  268.9
                  0.93785                             269                                    269
                  0.938596                            269                                    269.1
                  0.939342                            269                                    269.1
                  0.940095                            269.2                                  269.1
                  0.940847                            269.2                                  269.1
                  0.9416                              269.2                                  269.2
                  0.942304                            269.2                                  269.2
                  0.943008                            269.3                                  269.2
                  0.943712                            269.3                                  269.2
                  0.944391                            269.3                                  269.3
                  0.945071                            269.3                                  269.3
                  0.945751                            269.3                                  269.3
                  0.946436                            269.3                                  269.4
                  0.947121                            269.3                                  269.4
                  0.947805                            269.3                                  269.4
                  0.948418                            269.5                                  269.5
                  0.949031                            269.6                                  269.5
                  0.949644                            269.6                                  269.5
                  0.950279                            269.6                                  269.6
                  0.950914                            269.6                                  269.6
                  0.951549                            269.6                                  269.6
                  0.952143                            269.6                                  269.7
                  0.952736                            269.7                                  269.7
                  0.95333                             269.8                                  269.7
                  0.953884                            269.8                                  269.7
                  0.954437                            269.8                                  269.8
                  0.954991                            269.8                                  269.8
                  0.955564                            269.8                                  269.8
                  0.956137                            269.8                                  269.9
                  0.95671                             269.8                                  269.9
                  0.957238                            269.8                                  269.9
                  0.957766                            270                                    270
                  0.958294                            270                                    270
                  0.958787                            270                                    270
                  0.959279                            270                                    270
                  0.959772                            270                                    270.1